Folder: Work/LEPL1505 - Projet 4 en chimie et physique/Résultats d'expériences/TGA

File: TGA.txt
         Index             t        Weight            Ts            Tr
           [#]           [s]          [mg]          [°C]          [°C]
             0  0,00000e+000  1,45002e+001  2,47251e+001  2,50000e+001
            25  2,50000e+001  1,45010e+001  2,49037e+001  2,50000e+001
            50  5,00000e+001  1,45012e+001  2,50240e+001  2,50000e+001
            75  7,50000e+001  1,45061e+001  2,73588e+001  2,75000e+001
           100  1,00000e+002  1,45123e+001  3,16032e+001  3,16667e+001
           125  1,25000e+002  1,45032e+001  3,60727e+001  3,58333e+001
           150  1,50000e+002  1,44911e+001  4,06513e+001  4,00000e+001
           175  1,75000e+002  1,44807e+001  4,52678e+001  4,41667e+001
           200  2,00000e+002  1,44732e+001  4,98706e+001  4,83333e+001
           225  2,25000e+002  1,44664e+001  5,44373e+001  5,25000e+001
           250  2,50000e+002  1,44607e+001  5,89468e+001  5,66667e+001
           275  2,75000e+002  1,44541e+001  6,34275e+001  6,08333e+001
           300  3,00000e+002  1,44466e+001  6,78692e+001  6,50000e+001
           325  3,25000e+002  1,44376e+001  7,23183e+001  6,91667e+001
           350  3,50000e+002  1,44283e+001  7,67675e+001  7,33333e+001
           375  3,75000e+002  1,44196e+001  8,12842e+001  7,75000e+001
           400  4,00000e+002  1,44125e+001  8,59018e+001  8,16667e+001
           425  4,25000e+002  1,44067e+001  9,05638e+001  8,58333e+001
           450  4,50000e+002  1,44011e+001  9,52653e+001  9,00000e+001
           475  4,75000e+002  1,43942e+001  9,99480e+001  9,41667e+001
           500  5,00000e+002  1,43872e+001  1,04628e+002  9,83333e+001
           525  5,25000e+002  1,43799e+001  1,09323e+002  1,02500e+002
           550  5,50000e+002  1,43729e+001  1,13985e+002  1,06667e+002
           575  5,75000e+002  1,43655e+001  1,18649e+002  1,10833e+002
           600  6,00000e+002  1,43591e+001  1,23300e+002  1,15000e+002
           625  6,25000e+002  1,43519e+001  1,27998e+002  1,19167e+002
           650  6,50000e+002  1,43445e+001  1,32715e+002  1,23333e+002
           675  6,75000e+002  1,43374e+001  1,37415e+002  1,27500e+002
           700  7,00000e+002  1,43293e+001  1,42109e+002  1,31667e+002
           725  7,25000e+002  1,43222e+001  1,46809e+002  1,35833e+002
           750  7,50000e+002  1,43144e+001  1,51496e+002  1,40000e+002
           775  7,75000e+002  1,43075e+001  1,56167e+002  1,44167e+002
           800  8,00000e+002  1,43005e+001  1,60830e+002  1,48333e+002
           825  8,25000e+002  1,42936e+001  1,65467e+002  1,52500e+002
           850  8,50000e+002  1,42870e+001  1,70096e+002  1,56667e+002
           875  8,75000e+002  1,42805e+001  1,74677e+002  1,60833e+002
           900  9,00000e+002  1,42747e+001  1,79207e+002  1,65000e+002
           925  9,25000e+002  1,42687e+001  1,83672e+002  1,69167e+002
           950  9,50000e+002  1,42640e+001  1,88222e+002  1,73333e+002
           975  9,75000e+002  1,42574e+001  1,93086e+002  1,77500e+002
          1000  1,00000e+003  1,42518e+001  1,97934e+002  1,81667e+002
          1025  1,02500e+003  1,42458e+001  2,02683e+002  1,85833e+002
          1050  1,05000e+003  1,42406e+001  2,07370e+002  1,90000e+002
          1075  1,07500e+003  1,42351e+001  2,12049e+002  1,94167e+002
          1100  1,10000e+003  1,42304e+001  2,16704e+002  1,98333e+002
          1125  1,12500e+003  1,42254e+001  2,21324e+002  2,02500e+002
          1150  1,15000e+003  1,42207e+001  2,25922e+002  2,06667e+002
          1175  1,17500e+003  1,42164e+001  2,30589e+002  2,10833e+002
          1200  1,20000e+003  1,42121e+001  2,35162e+002  2,15000e+002
          1225  1,22500e+003  1,42077e+001  2,39737e+002  2,19167e+002
          1250  1,25000e+003  1,42034e+001  2,44294e+002  2,23333e+002
          1275  1,27500e+003  1,41995e+001  2,48845e+002  2,27500e+002
          1300  1,30000e+003  1,41963e+001  2,53373e+002  2,31667e+002
          1325  1,32500e+003  1,41918e+001  2,57872e+002  2,35833e+002
          1350  1,35000e+003  1,41879e+001  2,62364e+002  2,40000e+002
          1375  1,37500e+003  1,41841e+001  2,66835e+002  2,44167e+002
          1400  1,40000e+003  1,41805e+001  2,71301e+002  2,48333e+002
          1425  1,42500e+003  1,41768e+001  2,75760e+002  2,52500e+002
          1450  1,45000e+003  1,41732e+001  2,80190e+002  2,56667e+002
          1475  1,47500e+003  1,41695e+001  2,84607e+002  2,60833e+002
          1500  1,50000e+003  1,41660e+001  2,89021e+002  2,65000e+002
          1525  1,52500e+003  1,41625e+001  2,93406e+002  2,69167e+002
          1550  1,55000e+003  1,41587e+001  2,97773e+002  2,73333e+002
          1575  1,57500e+003  1,41550e+001  3,02142e+002  2,77500e+002
          1600  1,60000e+003  1,41517e+001  3,06496e+002  2,81667e+002
          1625  1,62500e+003  1,41477e+001  3,10848e+002  2,85833e+002
          1650  1,65000e+003  1,41446e+001  3,15166e+002  2,90000e+002
          1675  1,67500e+003  1,41405e+001  3,19498e+002  2,94167e+002
          1700  1,70000e+003  1,41365e+001  3,23811e+002  2,98333e+002
          1725  1,72500e+003  1,41326e+001  3,28103e+002  3,02500e+002
          1750  1,75000e+003  1,41288e+001  3,32400e+002  3,06667e+002
          1775  1,77500e+003  1,41243e+001  3,36675e+002  3,10833e+002
          1800  1,80000e+003  1,41199e+001  3,40937e+002  3,15000e+002
          1825  1,82500e+003  1,41154e+001  3,45203e+002  3,19167e+002
          1850  1,85000e+003  1,41107e+001  3,49454e+002  3,23333e+002
          1875  1,87500e+003  1,41053e+001  3,53673e+002  3,27500e+002
          1900  1,90000e+003  1,41001e+001  3,57907e+002  3,31667e+002
          1925  1,92500e+003  1,40949e+001  3,62125e+002  3,35833e+002
          1950  1,95000e+003  1,40895e+001  3,66326e+002  3,40000e+002
          1975  1,97500e+003  1,40839e+001  3,70539e+002  3,44167e+002
          2000  2,00000e+003  1,40784e+001  3,74710e+002  3,48333e+002
          2025  2,02500e+003  1,40733e+001  3,78903e+002  3,52500e+002
          2050  2,05000e+003  1,40677e+001  3,83091e+002  3,56667e+002
          2075  2,07500e+003  1,40630e+001  3,87258e+002  3,60833e+002
          2100  2,10000e+003  1,40575e+001  3,91409e+002  3,65000e+002
          2125  2,12500e+003  1,40526e+001  3,95565e+002  3,69167e+002
          2150  2,15000e+003  1,40476e+001  3,99704e+002  3,73333e+002
          2175  2,17500e+003  1,40427e+001  4,03843e+002  3,77500e+002
          2200  2,20000e+003  1,40380e+001  4,07967e+002  3,81667e+002
          2225  2,22500e+003  1,40325e+001  4,12056e+002  3,85833e+002
          2250  2,25000e+003  1,40265e+001  4,16169e+002  3,90000e+002
          2275  2,27500e+003  1,40197e+001  4,20263e+002  3,94167e+002
          2300  2,30000e+003  1,40124e+001  4,24351e+002  3,98333e+002
          2325  2,32500e+003  1,40051e+001  4,28439e+002  4,02500e+002
          2350  2,35000e+003  1,39972e+001  4,32517e+002  4,06667e+002
          2375  2,37500e+003  1,39887e+001  4,36590e+002  4,10833e+002
          2400  2,40000e+003  1,39795e+001  4,40671e+002  4,15000e+002
          2425  2,42500e+003  1,39685e+001  4,44729e+002  4,19167e+002
          2450  2,45000e+003  1,39556e+001  4,48774e+002  4,23333e+002
          2475  2,47500e+003  1,39391e+001  4,52817e+002  4,27500e+002
          2500  2,50000e+003  1,39173e+001  4,56850e+002  4,31667e+002
          2525  2,52500e+003  1,38849e+001  4,60890e+002  4,35833e+002
          2550  2,55000e+003  1,38354e+001  4,64908e+002  4,40000e+002
          2575  2,57500e+003  1,37539e+001  4,68917e+002  4,44167e+002
          2600  2,60000e+003  1,36093e+001  4,72883e+002  4,48333e+002
          2625  2,62500e+003  1,33494e+001  4,76783e+002  4,52500e+002
          2650  2,65000e+003  1,28949e+001  4,80642e+002  4,56667e+002
          2675  2,67500e+003  1,21512e+001  4,84483e+002  4,60833e+002
          2700  2,70000e+003  1,10306e+001  4,88314e+002  4,65000e+002
          2725  2,72500e+003  9,50746e+000  4,92188e+002  4,69167e+002
          2750  2,75000e+003  7,68416e+000  4,96150e+002  4,73333e+002
          2775  2,77500e+003  5,80403e+000  5,00312e+002  4,77500e+002
          2800  2,80000e+003  4,22341e+000  5,04708e+002  4,81667e+002
          2825  2,82500e+003  3,35366e+000  5,09246e+002  4,85833e+002
          2850  2,85000e+003  3,11021e+000  5,13612e+002  4,90000e+002
          2875  2,87500e+003  3,05419e+000  5,17797e+002  4,94167e+002
          2900  2,90000e+003  3,03282e+000  5,21900e+002  4,98333e+002
          2925  2,92500e+003  3,02141e+000  5,25971e+002  5,02500e+002
          2950  2,95000e+003  3,01489e+000  5,30034e+002  5,06667e+002
          2975  2,97500e+003  3,01089e+000  5,34073e+002  5,10833e+002
          3000  3,00000e+003  3,00731e+000  5,38150e+002  5,15000e+002
          3025  3,02500e+003  3,00512e+000  5,42195e+002  5,19167e+002
          3050  3,05000e+003  3,00308e+000  5,46235e+002  5,23333e+002
          3075  3,07500e+003  3,00136e+000  5,50284e+002  5,27500e+002
          3100  3,10000e+003  2,99907e+000  5,54309e+002  5,31667e+002
          3125  3,12500e+003  2,99744e+000  5,58345e+002  5,35833e+002
          3150  3,15000e+003  2,99524e+000  5,62377e+002  5,40000e+002
          3175  3,17500e+003  2,99306e+000  5,66406e+002  5,44167e+002
          3200  3,20000e+003  2,99097e+000  5,70424e+002  5,48333e+002
          3225  3,22500e+003  2,98840e+000  5,74458e+002  5,52500e+002
          3250  3,25000e+003  2,98692e+000  5,78490e+002  5,56667e+002
          3275  3,27500e+003  2,98458e+000  5,82515e+002  5,60833e+002
          3300  3,30000e+003  2,98213e+000  5,86490e+002  5,65000e+002
          3325  3,32500e+003  2,97954e+000  5,90463e+002  5,69167e+002
          3350  3,35000e+003  2,97652e+000  5,94431e+002  5,73333e+002
          3375  3,37500e+003  2,97401e+000  5,98404e+002  5,77500e+002
          3400  3,40000e+003  2,97045e+000  6,02376e+002  5,81667e+002
          3425  3,42500e+003  2,96703e+000  6,06336e+002  5,85833e+002
          3450  3,45000e+003  2,96359e+000  6,10285e+002  5,90000e+002
          3475  3,47500e+003  2,96104e+000  6,14253e+002  5,94167e+002
          3500  3,50000e+003  2,95773e+000  6,18195e+002  5,98333e+002
          3509  3,50900e+003  2,95606e+000  6,19618e+002  5,99833e+002
QPA - Projet P4 - Groupe B - Caisse, 18.03.2024 12:17:41